Frequency (Hz),Measured Intensity,Position X (m),Position Y (m),Position Z (m)
100,0.21,0,0,0
150,0.32,0,0,0
200,0.45,0,0,0
250,0.65,0,0,0
300,0.82,0,0,0
320,0.94,0,0,0
350,0.89,0,0,0
400,0.72,0,0,0
450,0.56,0,0,0
500,0.42,0,0,0
600,0.23,0,0,0
700,0.14,0,0,0