Frequency (Hz),Measured Intensity,Position X (m),Position Y (m),Position Z (m)
1200,0.98,0.0,0.0,0.0
1200,0.95,0.5,0.0,0.0
1200,0.93,1.0,0.0,0.0
1200,0.97,-0.5,0.0,0.0
1200,0.92,-1.0,0.0,0.0
1200,0.96,0.0,0.5,0.0
1200,0.91,0.0,1.0,0.0
1200,0.94,0.0,-0.5,0.0
1200,0.90,0.0,-1.0,0.0
1200,0.97,0.0,0.0,0.5
1200,0.94,0.0,0.0,1.0
1200,0.96,0.0,0.0,-0.5
1200,0.93,0.0,0.0,-1.0